<Bundle xmlns="http://hl7.org/fhir" xmlns:ns2="http://www.w3.org/1999/xhtml">
    <base value="http://localhost:8080/srv-dstu2-0.2/api/open/"/>
    <total value="14"/>
    <entry>
        <resource>
            <MedicationPrescription>
                <id value="MedicationPrescription/1000000005-1"/>
                <text>
                    <status value="generated"/>
                    <ns2:div>
                        <ns2:p/>
                    </ns2:div>
                </text>
                <contained>
                    <Medication>
                        <id value="Medication/1000000005-1"/>
                        <text>
                            <status value="generated"/>
                            <ns2:div/>
                        </text>
                        <name value=""/>
                        <code>
                            <coding>
                                <system value="http://../NDC"/>
                                <code value="00054823401"/>
                                <display value=""/>
                                <primary value="true"/>
                            </coding>
                            <coding>
                                <system value="http://www.nlm.nih.gov/research/umls/rxnorm"/>
                                <code value="884227"/>
                                <display value="CLONIDINE HYDROCHLORIDE 0.5 mg in 1 mL EPIDURAL INJECTION, SOLUTION [Duraclon]"/>
                            </coding>
                            <coding>
                                <system value="http://www.nlm.nih.gov/research/umls/rxnorm"/>
                                <code value="884227"/>
                                <display value="CLONIDINE HYDROCHLORIDE 0.5 mg in 1 mL EPIDURAL INJECTION, SOLUTION [Duraclon]"/>
                            </coding>
                        </code>
                    </Medication>
                </contained>
                <dateWritten value="2003-05-12T00:00:00"/>
                <patient>
                    <reference value="Patient/1000000005"/>
                </patient>
                <medication>
                    <reference value="#Medication/1000000005-1"/>
                </medication>
                <dosageInstruction>
                    <route>
                        <coding>
                            <system value="http://snomed.info/sct"/>
                            <code value="UNK"/>
                            <display value="UNK"/>
                            <primary value="true"/>
                        </coding>
                    </route>
                    <doseQuantity>
                        <value value="500"/>
                        <units value="mcg/ml"/>
                        <system value="http://unitsofmeasure.org"/>
                        <code value="mcg/ml"/>
                    </doseQuantity>
                </dosageInstruction>
            </MedicationPrescription>
        </resource>
    </entry>
    <entry>
        <resource>
            <MedicationPrescription>
                <id value="MedicationPrescription/1000000005-2"/>
                <text>
                    <status value="generated"/>
                    <ns2:div>
                        <ns2:p/>
                    </ns2:div>
                </text>
                <contained>
                    <Medication>
                        <id value="Medication/1000000005-2"/>
                        <text>
                            <status value="generated"/>
                            <ns2:div/>
                        </text>
                        <name value=""/>
                        <code>
                            <coding>
                                <system value="http://../NDC"/>
                                <code value="00074246124"/>
                                <display value=""/>
                                <primary value="true"/>
                            </coding>
                            <coding>
                                <system value="http://www.nlm.nih.gov/research/umls/rxnorm"/>
                                <code value="262219"/>
                                <display value="fentaNYL 0.4 MG Oral Lozenge [Actiq]"/>
                            </coding>
                            <coding>
                                <system value="http://www.nlm.nih.gov/research/umls/rxnorm"/>
                                <code value="262219"/>
                                <display value="fentaNYL 0.4 MG Oral Lozenge [Actiq]"/>
                            </coding>
                        </code>
                    </Medication>
                </contained>
                <dateWritten value="2004-01-02T00:00:00"/>
                <patient>
                    <reference value="Patient/1000000005"/>
                </patient>
                <medication>
                    <reference value="Medication/1000000005-2"/>
                </medication>
                <dosageInstruction>
                    <route>
                        <coding>
                            <system value="http://snomed.info/sct"/>
                            <code value="UNK"/>
                            <display value="UNK"/>
                            <primary value="true"/>
                        </coding>
                    </route>
                    <doseQuantity>
                        <value value="400"/>
                        <units value="mcg"/>
                        <system value="http://unitsofmeasure.org"/>
                        <code value="mcg"/>
                    </doseQuantity>
                </dosageInstruction>
            </MedicationPrescription>
        </resource>
    </entry>
    <entry>
        <resource>
            <MedicationPrescription>
                <id value="MedicationPrescription/1000000005-3"/>
                <text>
                    <status value="generated"/>
                    <ns2:div>
                        <ns2:p/>
                    </ns2:div>
                </text>
                <contained>
                    <Medication>
                        <id value="Medication/1000000005-3"/>
                        <text>
                            <status value="generated"/>
                            <ns2:div/>
                        </text>
                        <name value=""/>
                        <code>
                            <coding>
                                <system value="http://../NDC"/>
                                <code value="53014067870"/>
                                <display value=""/>
                                <primary value="true"/>
                            </coding>
                            <coding>
                                <system value="http://www.nlm.nih.gov/research/umls/rxnorm"/>
                                <code value="831269"/>
                                <display value="Gastrocrom 100mg/5ml Solution"/>
                            </coding>
                            <coding>
                                <system value="http://www.nlm.nih.gov/research/umls/rxnorm"/>
                                <code value="831269"/>
                                <display value="Gastrocrom 100mg/5ml Solution"/>
                            </coding>
                        </code>
                    </Medication>
                </contained>
                <dateWritten value="2005-03-29T00:00:00"/>
                <patient>
                    <reference value="Patient/1000000005"/>
                </patient>
                <medication>
                    <reference value="Medication/1000000005-3"/>
                </medication>
                <dosageInstruction>
                    <route>
                        <coding>
                            <system value="http://snomed.info/sct"/>
                            <code value="UNK"/>
                            <display value="UNK"/>
                            <primary value="true"/>
                        </coding>
                    </route>
                    <doseQuantity>
                        <value value="20"/>
                        <units value="mg/ml"/>
                        <system value="http://unitsofmeasure.org"/>
                        <code value="mg/ml"/>
                    </doseQuantity>
                </dosageInstruction>
            </MedicationPrescription>
        </resource>
    </entry>
    <entry>
        <resource>
            <MedicationPrescription>
                <id value="MedicationPrescription/1000000005-4"/>
                <text>
                    <status value="generated"/>
                    <ns2:div>
                        <ns2:p/>
                    </ns2:div>
                </text>
                <contained>
                    <Medication>
                        <id value="Medication/1000000005-4"/>
                        <text>
                            <status value="generated"/>
                            <ns2:div/>
                        </text>
                        <name value=""/>
                        <code>
                            <coding>
                                <system value="http://../NDC"/>
                                <code value="00006027531"/>
                                <display value=""/>
                                <primary value="true"/>
                            </coding>
                            <coding>
                                <system value="http://www.nlm.nih.gov/research/umls/rxnorm"/>
                                <code value="153893"/>
                                <display value="Singulair 5 MG Chewable Tablet"/>
                            </coding>
                            <coding>
                                <system value="http://www.nlm.nih.gov/research/umls/rxnorm"/>
                                <code value="153893"/>
                                <display value="Singulair 5 MG Chewable Tablet"/>
                            </coding>
                        </code>
                    </Medication>
                </contained>
                <dateWritten value="2006-11-09T00:00:00"/>
                <patient>
                    <reference value="Patient/1000000005"/>
                </patient>
                <medication>
                    <reference value="Medication/1000000005-4"/>
                </medication>
                <dosageInstruction>
                    <route>
                        <coding>
                            <system value="http://snomed.info/sct"/>
                            <code value="UNK"/>
                            <display value="UNK"/>
                            <primary value="true"/>
                        </coding>
                    </route>
                    <doseQuantity>
                        <value value="5"/>
                        <units value="mg"/>
                        <system value="http://unitsofmeasure.org"/>
                        <code value="mg"/>
                    </doseQuantity>
                </dosageInstruction>
            </MedicationPrescription>
        </resource>
    </entry>
    <entry>
        <resource>
            <MedicationPrescription>
                <id value="MedicationPrescription/1000000005-5"/>
                <text>
                    <status value="generated"/>
                    <ns2:div>
                        <ns2:p/>
                    </ns2:div>
                </text>
                <contained>
                    <Medication>
                        <id value="Medication/1000000005-5"/>
                        <text>
                            <status value="generated"/>
                            <ns2:div/>
                        </text>
                        <name value=""/>
                        <code>
                            <coding>
                                <system value="http://../NDC"/>
                                <code value="00089081710"/>
                                <display value=""/>
                                <primary value="true"/>
                            </coding>
                            <coding>
                                <system value="http://www.nlm.nih.gov/research/umls/rxnorm"/>
                                <code value="966812"/>
                                <display value="MAXAIR 200 MCG/INHAL Metered Dose Inhaler, 400 Actuations"/>
                            </coding>
                            <coding>
                                <system value="http://www.nlm.nih.gov/research/umls/rxnorm"/>
                                <code value="966812"/>
                                <display value="MAXAIR 200 MCG/INHAL Metered Dose Inhaler, 400 Actuations"/>
                            </coding>
                        </code>
                    </Medication>
                </contained>
                <dateWritten value="2006-11-09T00:00:00"/>
                <patient>
                    <reference value="Patient/1000000005"/>
                </patient>
                <medication>
                    <reference value="Medication/1000000005-5"/>
                </medication>
                <dosageInstruction>
                    <route>
                        <coding>
                            <system value="http://snomed.info/sct"/>
                            <code value="UNK"/>
                            <display value="UNK"/>
                            <primary value="true"/>
                        </coding>
                    </route>
                    <doseQuantity>
                        <value value="0.2"/>
                        <units value="mg/inh"/>
                        <system value="http://unitsofmeasure.org"/>
                        <code value="mg/inh"/>
                    </doseQuantity>
                </dosageInstruction>
            </MedicationPrescription>
        </resource>
    </entry>
    <entry>
        <resource>
            <MedicationPrescription>
                <id value="MedicationPrescription/1000000005-6"/>
                <text>
                    <status value="generated"/>
                    <ns2:div>
                        <ns2:p/>
                    </ns2:div>
                </text>
                <contained>
                    <Medication>
                        <id value="Medication/1000000005-6"/>
                        <text>
                            <status value="generated"/>
                            <ns2:div/>
                        </text>
                        <name value=""/>
                        <code>
                            <coding>
                                <system value="http://../NDC"/>
                                <code value="00173049800"/>
                                <display value=""/>
                                <primary value="true"/>
                            </coding>
                            <coding>
                                <system value="http://www.nlm.nih.gov/research/umls/rxnorm"/>
                                <code value="769060"/>
                                <display value="Flovent 110mcg/actuation Inhalation Aerosol"/>
                            </coding>
                            <coding>
                                <system value="http://www.nlm.nih.gov/research/umls/rxnorm"/>
                                <code value="769060"/>
                                <display value="Flovent 110mcg/actuation Inhalation Aerosol"/>
                            </coding>
                        </code>
                    </Medication>
                </contained>
                <dateWritten value="2006-11-09T00:00:00"/>
                <patient>
                    <reference value="Patient/1000000005"/>
                </patient>
                <medication>
                    <reference value="Medication/1000000005-6"/>
                </medication>
                <dosageInstruction>
                    <route>
                        <coding>
                            <system value="http://snomed.info/sct"/>
                            <code value="UNK"/>
                            <display value="UNK"/>
                            <primary value="true"/>
                        </coding>
                    </route>
                    <doseQuantity>
                        <value value="110"/>
                        <units value="mcg/inh"/>
                        <system value="http://unitsofmeasure.org"/>
                        <code value="mcg/inh"/>
                    </doseQuantity>
                </dosageInstruction>
            </MedicationPrescription>
        </resource>
    </entry>
    <entry>
        <resource>
            <MedicationPrescription>
                <id value="MedicationPrescription/1000000005-7"/>
                <text>
                    <status value="generated"/>
                    <ns2:div>
                        <ns2:p/>
                    </ns2:div>
                </text>
                <contained>
                    <Medication>
                        <id value="Medication/1000000005-7"/>
                        <text>
                            <status value="generated"/>
                            <ns2:div/>
                        </text>
                        <name value=""/>
                        <code>
                            <coding>
                                <system value="http://../NDC"/>
                                <code value="00182102101"/>
                                <display value=""/>
                                <primary value="true"/>
                            </coding>
                            <coding>
                                <system value="http://www.nlm.nih.gov/research/umls/rxnorm"/>
                                <code value="856853"/>
                                <display value="Amitriptyline Hydrochloride 75 mg ORAL TABLET, FILM COATED"/>
                            </coding>
                            <coding>
                                <system value="http://www.nlm.nih.gov/research/umls/rxnorm"/>
                                <code value="856853"/>
                                <display value="Amitriptyline Hydrochloride 75 mg ORAL TABLET, FILM COATED"/>
                            </coding>
                        </code>
                    </Medication>
                </contained>
                <dateWritten value="2006-11-09T00:00:00"/>
                <patient>
                    <reference value="Patient/1000000005"/>
                </patient>
                <medication>
                    <reference value="Medication/1000000005-7"/>
                </medication>
                <dosageInstruction>
                    <route>
                        <coding>
                            <system value="http://snomed.info/sct"/>
                            <code value="UNK"/>
                            <display value="UNK"/>
                            <primary value="true"/>
                        </coding>
                    </route>
                    <doseQuantity>
                        <value value="75"/>
                        <units value="mg"/>
                        <system value="http://unitsofmeasure.org"/>
                        <code value="mg"/>
                    </doseQuantity>
                </dosageInstruction>
            </MedicationPrescription>
        </resource>
    </entry>
    <entry>
        <resource>
            <MedicationPrescription>
                <id value="MedicationPrescription/1000000005-8"/>
                <text>
                    <status value="generated"/>
                    <ns2:div>
                        <ns2:p/>
                    </ns2:div>
                </text>
                <contained>
                    <Medication>
                        <id value="Medication/1000000005-8"/>
                        <text>
                            <status value="generated"/>
                            <ns2:div/>
                        </text>
                        <name value=""/>
                        <code>
                            <coding>
                                <system value="http://../NDC"/>
                                <code value="51285057628"/>
                                <display value=""/>
                                <primary value="true"/>
                            </coding>
                            <coding>
                                <system value="http://www.nlm.nih.gov/research/umls/rxnorm"/>
                                <code value="753482"/>
                                <display value="Desogestrel/Ethinyl Estradiol;Placebo 0.15 MG-0.03 MG Oral Tablet [APRI]"/>
                            </coding>
                            <coding>
                                <system value="http://www.nlm.nih.gov/research/umls/rxnorm"/>
                                <code value="753482"/>
                                <display value="Desogestrel/Ethinyl Estradiol;Placebo 0.15 MG-0.03 MG Oral Tablet [APRI]"/>
                            </coding>
                        </code>
                    </Medication>
                </contained>
                <dateWritten value="2006-11-09T00:00:00"/>
                <patient>
                    <reference value="Patient/1000000005"/>
                </patient>
                <medication>
                    <reference value="Medication/1000000005-8"/>
                </medication>
                <dosageInstruction>
                    <route>
                        <coding>
                            <system value="http://snomed.info/sct"/>
                            <code value="UNK"/>
                            <display value="UNK"/>
                            <primary value="true"/>
                        </coding>
                    </route>
                    <doseQuantity>
                        <value/>
                        <units value=""/>
                        <system value="http://unitsofmeasure.org"/>
                        <code value=""/>
                    </doseQuantity>
                </dosageInstruction>
            </MedicationPrescription>
        </resource>
    </entry>
    <entry>
        <resource>
            <MedicationPrescription>
                <id value="MedicationPrescription/1000000005-9"/>
                <text>
                    <status value="generated"/>
                    <ns2:div>
                        <ns2:p/>
                    </ns2:div>
                </text>
                <contained>
                    <Medication>
                        <id value="Medication/1000000005-9"/>
                        <text>
                            <status value="generated"/>
                            <ns2:div/>
                        </text>
                        <name value=""/>
                        <code>
                            <coding>
                                <system value="http://../NDC"/>
                                <code value="00005450709"/>
                                <display value=""/>
                                <primary value="true"/>
                            </coding>
                            <coding>
                                <system value="http://www.nlm.nih.gov/research/umls/rxnorm"/>
                                <code value="971956"/>
                                <display value="Rheumatrex 2.5mg Dose Pack Tablet"/>
                            </coding>
                            <coding>
                                <system value="http://www.nlm.nih.gov/research/umls/rxnorm"/>
                                <code value="971956"/>
                                <display value="Rheumatrex 2.5mg Dose Pack Tablet"/>
                            </coding>
                        </code>
                    </Medication>
                </contained>
                <dateWritten value="2008-05-08T00:00:00"/>
                <patient>
                    <reference value="Patient/1000000005"/>
                </patient>
                <medication>
                    <reference value="Medication/1000000005-9"/>
                </medication>
                <dosageInstruction>
                    <route>
                        <coding>
                            <system value="http://snomed.info/sct"/>
                            <code value="UNK"/>
                            <display value="UNK"/>
                            <primary value="true"/>
                        </coding>
                    </route>
                    <doseQuantity>
                        <value value="2.5"/>
                        <units value="mg"/>
                        <system value="http://unitsofmeasure.org"/>
                        <code value="mg"/>
                    </doseQuantity>
                </dosageInstruction>
            </MedicationPrescription>
        </resource>
    </entry>
    <entry>
        <resource>
            <MedicationPrescription>
                <id value="MedicationPrescription/1000000005-10"/>
                <text>
                    <status value="generated"/>
                    <ns2:div>
                        <ns2:p/>
                    </ns2:div>
                </text>
                <contained>
                    <Medication>
                        <id value="Medication/1000000005-10"/>
                        <text>
                            <status value="generated"/>
                            <ns2:div/>
                        </text>
                        <name value=""/>
                        <code>
                            <coding>
                                <system value="http://../NDC"/>
                                <code value="00028020501"/>
                                <display value=""/>
                                <primary value="true"/>
                            </coding>
                            <coding>
                                <system value="http://www.nlm.nih.gov/research/umls/rxnorm"/>
                                <code value="855659"/>
                                <display value="Voltaren XR 100 MG 24HR Extended Release Oral Tablet"/>
                            </coding>
                            <coding>
                                <system value="http://www.nlm.nih.gov/research/umls/rxnorm"/>
                                <code value="855659"/>
                                <display value="Voltaren XR 100 MG 24HR Extended Release Oral Tablet"/>
                            </coding>
                        </code>
                    </Medication>
                </contained>
                <dateWritten value="2008-05-08T00:00:00"/>
                <patient>
                    <reference value="Patient/1000000005"/>
                </patient>
                <medication>
                    <reference value="Medication/1000000005-10"/>
                </medication>
                <dosageInstruction>
                    <route>
                        <coding>
                            <system value="http://snomed.info/sct"/>
                            <code value="UNK"/>
                            <display value="UNK"/>
                            <primary value="true"/>
                        </coding>
                    </route>
                    <doseQuantity>
                        <value value="100"/>
                        <units value="mg"/>
                        <system value="http://unitsofmeasure.org"/>
                        <code value="mg"/>
                    </doseQuantity>
                </dosageInstruction>
            </MedicationPrescription>
        </resource>
    </entry>
    <entry>
        <resource>
            <MedicationPrescription>
                <id value="MedicationPrescription/1000000005-11"/>
                <text>
                    <status value="generated"/>
                    <ns2:div>
                        <ns2:p/>
                    </ns2:div>
                </text>
                <contained>
                    <Medication>
                        <id value="Medication/1000000005-11"/>
                        <text>
                            <status value="generated"/>
                            <ns2:div/>
                        </text>
                        <name value=""/>
                        <code>
                            <coding>
                                <system value="http://../NDC"/>
                                <code value="00058287505"/>
                                <display value=""/>
                                <primary value="true"/>
                            </coding>
                            <coding>
                                <system value="http://www.nlm.nih.gov/research/umls/rxnorm"/>
                                <code value="211752"/>
                                <display value="Inflamase Mild 0.125 % Ophthalmic Solution"/>
                            </coding>
                            <coding>
                                <system value="http://www.nlm.nih.gov/research/umls/rxnorm"/>
                                <code value="211752"/>
                                <display value="Inflamase Mild 0.125 % Ophthalmic Solution"/>
                            </coding>
                        </code>
                    </Medication>
                </contained>
                <dateWritten value="2008-05-08T00:00:00"/>
                <patient>
                    <reference value="Patient/1000000005"/>
                </patient>
                <medication>
                    <reference value="Medication/1000000005-11"/>
                </medication>
                <dosageInstruction>
                    <route>
                        <coding>
                            <system value="http://snomed.info/sct"/>
                            <code value="UNK"/>
                            <display value="UNK"/>
                            <primary value="true"/>
                        </coding>
                    </route>
                    <doseQuantity>
                        <value value="0.125"/>
                        <units value="%"/>
                        <system value="http://unitsofmeasure.org"/>
                        <code value="%"/>
                    </doseQuantity>
                </dosageInstruction>
            </MedicationPrescription>
        </resource>
    </entry>
    <entry>
        <resource>
            <MedicationPrescription>
                <id value="MedicationPrescription/1000000005-12"/>
                <text>
                    <status value="generated"/>
                    <ns2:div>
                        <ns2:p/>
                    </ns2:div>
                </text>
                <contained>
                    <Medication>
                        <id value="Medication/1000000005-12"/>
                        <text>
                            <status value="generated"/>
                            <ns2:div/>
                        </text>
                        <name value=""/>
                        <code>
                            <coding>
                                <system value="http://../NDC"/>
                                <code value="00025138131"/>
                                <display value=""/>
                                <primary value="true"/>
                            </coding>
                            <coding>
                                <system value="http://www.nlm.nih.gov/research/umls/rxnorm"/>
                                <code value="207243"/>
                                <display value="Daypro 600 MG Oral Tablet"/>
                            </coding>
                            <coding>
                                <system value="http://www.nlm.nih.gov/research/umls/rxnorm"/>
                                <code value="207243"/>
                                <display value="Daypro 600 MG Oral Tablet"/>
                            </coding>
                        </code>
                    </Medication>
                </contained>
                <dateWritten value="2008-07-24T00:00:00"/>
                <patient>
                    <reference value="Patient/1000000005"/>
                </patient>
                <medication>
                    <reference value="Medication/1000000005-12"/>
                </medication>
                <dosageInstruction>
                    <route>
                        <coding>
                            <system value="http://snomed.info/sct"/>
                            <code value="UNK"/>
                            <display value="UNK"/>
                            <primary value="true"/>
                        </coding>
                    </route>
                    <doseQuantity>
                        <value value="600"/>
                        <units value="mg"/>
                        <system value="http://unitsofmeasure.org"/>
                        <code value="mg"/>
                    </doseQuantity>
                </dosageInstruction>
            </MedicationPrescription>
        </resource>
    </entry>
    <entry>
        <resource>
            <MedicationPrescription>
                <id value="MedicationPrescription/1000000005-13"/>
                <text>
                    <status value="generated"/>
                    <ns2:div>
                        <ns2:p/>
                    </ns2:div>
                </text>
                <contained>
                    <Medication>
                        <id value="Medication/1000000005-13"/>
                        <text>
                            <status value="generated"/>
                            <ns2:div/>
                        </text>
                        <name value=""/>
                        <code>
                            <coding>
                                <system value="http://../NDC"/>
                                <code value="00005306343"/>
                                <display value=""/>
                                <primary value="true"/>
                            </coding>
                            <coding>
                                <system value="http://www.nlm.nih.gov/research/umls/rxnorm"/>
                                <code value="197318"/>
                                <display value="albuterol sulfate 4 mg ORAL TABLET"/>
                            </coding>
                            <coding>
                                <system value="http://www.nlm.nih.gov/research/umls/rxnorm"/>
                                <code value="197318"/>
                                <display value="albuterol sulfate 4 mg ORAL TABLET"/>
                            </coding>
                        </code>
                    </Medication>
                </contained>
                <dateWritten value="2008-08-06T00:00:00"/>
                <patient>
                    <reference value="Patient/1000000005"/>
                </patient>
                <medication>
                    <reference value="Medication/1000000005-13"/>
                </medication>
                <dosageInstruction>
                    <route>
                        <coding>
                            <system value="http://snomed.info/sct"/>
                            <code value="UNK"/>
                            <display value="UNK"/>
                            <primary value="true"/>
                        </coding>
                    </route>
                    <doseQuantity>
                        <value value="4"/>
                        <units value="mg"/>
                        <system value="http://unitsofmeasure.org"/>
                        <code value="mg"/>
                    </doseQuantity>
                </dosageInstruction>
            </MedicationPrescription>
        </resource>
    </entry>
    <entry>
        <resource>
            <MedicationPrescription>
                <id value="MedicationPrescription/1000000005-14"/>
                <text>
                    <status value="generated"/>
                    <ns2:div>
                        <ns2:p/>
                    </ns2:div>
                </text>
                <contained>
                    <Medication>
                        <id value="Medication/1000000005-14"/>
                        <text>
                            <status value="generated"/>
                            <ns2:div/>
                        </text>
                        <name value=""/>
                        <code>
                            <coding>
                                <system value="http://../NDC"/>
                                <code value="00364246533"/>
                                <display value=""/>
                                <primary value="true"/>
                            </coding>
                            <coding>
                                <system value="http://www.nlm.nih.gov/research/umls/rxnorm"/>
                                <code value="313929"/>
                                <display value="CEFAZOLIN SODIUM 1 g INTRAMUSCULAR INJECTION, POWDER, FOR SOLUTION"/>
                            </coding>
                            <coding>
                                <system value="http://www.nlm.nih.gov/research/umls/rxnorm"/>
                                <code value="313929"/>
                                <display value="CEFAZOLIN SODIUM 1 g INTRAMUSCULAR INJECTION, POWDER, FOR SOLUTION"/>
                            </coding>
                        </code>
                    </Medication>
                </contained>
                <dateWritten value="2010-06-22T00:00:00"/>
                <patient>
                    <reference value="Patient/1000000005"/>
                </patient>
                <medication>
                    <reference value="Medication/1000000005-14"/>
                </medication>
                <dosageInstruction>
                    <route>
                        <coding>
                            <system value="http://snomed.info/sct"/>
                            <code value="UNK"/>
                            <display value="UNK"/>
                            <primary value="true"/>
                        </coding>
                    </route>
                    <doseQuantity>
                        <value value="5"/>
                        <units value="gm"/>
                        <system value="http://unitsofmeasure.org"/>
                        <code value="gm"/>
                    </doseQuantity>
                </dosageInstruction>
            </MedicationPrescription>
        </resource>
    </entry>
</Bundle>